{
  "resourceType": "Bundle",
  "id": "svc-Bundle-06",
  "identifier": {
    "system": "http://hl7.eu/fhir/sid/uvci",
    "value": "V1CZ454557891308174803488707671418",
    "period": {
      "start": "2020-12-27T14:30:00+01:00",
      "end": "2021-12-27T14:30:00+01:00"
    }
  },
  "type": "document",
  "timestamp": "2020-12-27T14:30:00+01:00",
  "entry": [
    {
      "fullUrl": "urn:uuid:35785221-4707-45e3-9c26-f50bd49665ec",
      "resource": {
        "resourceType": "Composition",
        "id": "35785221-4707-45e3-9c26-f50bd49665ec",
        "identifier": {
          "system": "urn:oid:2.16.724.4.8.10.200.10",
          "value": "3f69e0a5-2177-4540-baab-7a5d0877428f"
        },
        "status": "final",
        "type": {
          "coding": [
            {
              "code": "82593-5",
              "system": "http://loinc.org",
              "display": "Immunization summary report"
            }
          ]
        },
        "subject": {
          "reference": "urn:uuid:45598100-e07c-4c4a-a54e-561459dc4dea"
        },
        "date": "2020-12-27T14:30:00+01:00",
        "author": [
          {
            "display": "MUDr. Aleš Procházka"
          }
        ],
        "title": "Vaccine Certificate December 27, 2020 14:30",
        "confidentiality": "N",
        "attester": [
          {
            "mode": "legal",
            "time": "2020-12-27T14:30:00+01:00",
            "party": {
              "reference": "urn:uuid:45a5c5b1-4ec1-4d60-b4b2-ff5a84a41fd7"
            }
          }
        ],
        "custodian": {
          "reference": "urn:uuid:45a5c5b1-4ec1-4d60-b4b2-ff5a84a41fd7"
        },
        "section": [
          {
            "title": "Vaccinations",
            "code": {
              "coding": [
                {
                  "code": "11369-6",
                  "system": "http://loinc.org",
                  "display": "Hx of Immunization"
                }
              ]
            },
            "text": {
              "status": "generated",
              "div": "<div xmlns=\"http://www.w3.org/1999/xhtml\"><h4>Administered</h4><table border=\"1\"><tbody><tr><th>Date</th><th>Dose</th><th>Product</th><th>Vaccine</th><th>Notes</th></tr><tr><td>2020-12-02</td><td>1/2</td><td>Comirnaty</td><td>COVID-19 mRNA Vaccine</td><td>Skin rash reaction reported</td></tr></tbody></table><p></p><h4>Planned</h4><table border=\"1\"><tbody><tr><th>Due Date</th><th>Dose</th><th>Product</th><th>Vaccine</th><th>Notes</th></tr><tr><td>2020-12-23</td><td>2/2</td><td>Comirnaty</td><td>COVID-19 mRNA Vaccine</td><td>Contraindicated due to Propensity to adverse reaction</td></tr></tbody></table></div>"
            },
            "entry": [
              {
                "reference": "urn:uuid:57d581c1-950c-4fee-8347-63d8b70c03f5"
              },
              {
                "reference": "urn:uuid:e79e9fc2-68ea-4226-8f9f-a8231649d466"
              }
            ]
          }
        ]
      }
    },
    {
      "fullUrl": "urn:uuid:45598100-e07c-4c4a-a54e-561459dc4dea",
      "resource": {
        "resourceType": "Patient",
        "id": "45598100-e07c-4c4a-a54e-561459dc4dea",
        "identifier": [
          {
            "type": {
              "coding": [
                {
                  "code": "NIIP",
                  "system": "http://terminology.hl7.org/CodeSystem/v2-0203"
                }
              ]
            },
            "system": "urn:oid:1.2.203.24341.1.20.2",
            "value": "715511123X"
          },
          {
            "system": "urn:oid:1.2.203.24341.1.20.9.1",
            "value": "A225961454"
          },
          {
            "type": {
              "coding": [
                {
                  "code": "PPN",
                  "system": "http://terminology.hl7.org/CodeSystem/v2-0203"
                }
              ]
            },
            "system": "urn:oid:2.16.840.1.113883.4.330.203",
            "value": "5484136"
          }
        ],
        "name": [
          {
            "family": "Nedostatečně Očkovaná",
            "given": [
              "Jana Marie"
            ]
          }
        ],
        "gender": "female",
        "birthDate": "1971-05-11"
      }
    },
    {
      "fullUrl": "urn:uuid:57d581c1-950c-4fee-8347-63d8b70c03f5",
      "resource": {
        "resourceType": "Immunization",
        "id": "57d581c1-950c-4fee-8347-63d8b70c03f5",
        "status": "completed",
        "vaccineCode": {
          "coding": [
            {
              "code": "1119349007",
              "system": "http://snomed.info/sct",
              "display": "Severe acute respiratory syndrome coronavirus 2 mRNA only vaccine product"
            }
          ],
          "text": "Comirnaty"
        },
        "patient": {
          "reference": "urn:uuid:45598100-e07c-4c4a-a54e-561459dc4dea"
        },
        "occurrenceDateTime": "2020-12-02",
        "location": {
          "reference": "urn:uuid:55a5c5b1-4ec1-4d60-b4b2-ff5a84a41fd8"
        },
        "manufacturer": {
          "display": "BioNTech Manufacturing GmbH"
        },
        "lotNumber": "B1235742",
        "performer": [
          {
            "actor": {
              "display": "MUDr. Jan Očko CSc."
            }
          }
        ],
        "reaction": [
          {
            "detail": {
              "display": "skin rash"
            }
          }
        ],
        "protocolApplied": [
          {
            "targetDisease": [
              {
                "coding": [
                  {
                    "code": "840533007",
                    "system": "http://snomed.info/sct",
                    "display": "SARS-CoV-2"
                  }
                ]
              }
            ],
            "doseNumberPositiveInt": 1,
            "seriesDosesPositiveInt": 2
          }
        ]
      }
    },
    {
      "fullUrl": "urn:uuid:e79e9fc2-68ea-4226-8f9f-a8231649d466",
      "resource": {
        "resourceType": "ImmunizationRecommendation",
        "id": "e79e9fc2-68ea-4226-8f9f-a8231649d466",
        "patient": {
          "reference": "urn:uuid:45598100-e07c-4c4a-a54e-561459dc4dea"
        },
        "date": "2020-12-02",
        "authority": {
          "reference": "urn:uuid:45a5c5b1-4ec1-4d60-b4b2-ff5a84a41fd7"
        },
        "recommendation": [
          {
            "vaccineCode": [
              {
                "coding": [
                  {
                    "code": "1119349007",
                    "system": "http://snomed.info/sct",
                    "display": "Severe acute respiratory syndrome coronavirus 2 mRNA only vaccine product"
                  }
                ]
              }
            ],
            "forecastStatus": {
              "coding": [
                {
                  "code": "contraindicated",
                  "system": "http://terminology.hl7.org/CodeSystem/immunization-recommendation-status"
                }
              ]
            },
            "forecastReason": [
              {
                "coding": [
                  {
                    "code": "420134006",
                    "system": "http://snomed.info/sct",
                    "display": "Propensity to adverse reaction"
                  }
                ]
              }
            ],
            "dateCriterion": [
              {
                "code": {
                  "coding": [
                    {
                      "code": "30980-7",
                      "system": "http://loinc.org",
                      "display": "Date vaccine due"
                    }
                  ]
                },
                "value": "2020-12-23"
              }
            ],
            "doseNumberPositiveInt": 2,
            "seriesDosesPositiveInt": 2
          }
        ]
      }
    },
    {
      "fullUrl": "urn:uuid:45a5c5b1-4ec1-4d60-b4b2-ff5a84a41fd7",
      "resource": {
        "resourceType": "Organization",
        "id": "45a5c5b1-4ec1-4d60-b4b2-ff5a84a41fd7",
        "identifier": [
          {
            "system": "urn:oid:1.2.203",
            "value": "24341"
          }
        ],
        "name": "Ministry of Health of the Czech Republic"
      }
    },
    {
      "fullUrl": "urn:uuid:55a5c5b1-4ec1-4d60-b4b2-ff5a84a41fd8",
      "resource": {
        "resourceType": "Location",
        "id": "55a5c5b1-4ec1-4d60-b4b2-ff5a84a41fd8",
        "name": "Hospital Na Františku Prague",
        "address": {
          "city": "Prague",
          "country": "CZ"
        }
      }
    }
  ]
}
