{
  "resourceType": "Bundle",
  "id": "svc-Bundle-04",
  "identifier": {
    "system": "http://hl7.eu/fhir/sid/uvci",
    "value": "V1IT454557891308174803488707671418",
    "period": {
      "start": "2021-02-10"
    }
  },
  "type": "document",
  "timestamp": "2021-02-10T14:30:00+01:00",
  "entry": [
    {
      "fullUrl": "urn:uuid:30551ce1-5a28-4356-b684-1e639094ad4d",
      "resource": {
        "resourceType": "Composition",
        "id": "30551ce1-5a28-4356-b684-1e639094ad4d",
        "identifier": {
          "system": "urn:oid:2.16.724.4.8.10.200.10",
          "value": "3f69e0a5-2177-4540-baab-7a5d0877428f"
        },
        "status": "final",
        "type": {
          "coding": [
            {
              "code": "82593-5",
              "system": "http://loinc.org",
              "display": "Immunization summary report"
            }
          ]
        },
        "subject": {
          "reference": "urn:uuid:2b90dd2b-2dab-4c75-9bb9-a355e07401e8"
        },
        "date": "2021-02-10T14:30:00+01:00",
        "author": [
          {
            "reference": "urn:uuid:d7a490a1-d267-4785-ac98-db56748827fb"
          }
        ],
        "title": "Vaccine Certificate Covid-19",
        "attester": [
          {
            "mode": "legal",
            "time": "2020-12-27T14:30:00+01:00",
            "party": {
              "reference": "urn:uuid:45a5c5b1-4ec1-4d60-b4b2-ff5a84a41fd7"
            }
          }
        ],
        "custodian": {
          "reference": "urn:uuid:b66c1b23-21e9-4bd0-9cd7-edd806c126de"
        },
        "section": [
          {
            "title": "Vaccinations",
            "code": {
              "coding": [
                {
                  "code": "11369-6",
                  "system": "http://loinc.org",
                  "display": "Hx of Immunization"
                }
              ]
            },
            "text": {
              "status": "generated",
              "div": "<div xmlns=\"http://www.w3.org/1999/xhtml\"><p><strong>Maria Rossi (RSSMRA97L67Z602C)</strong></p><p><span>COVID-19 mRNA Vaccine&nbsp;</span></p><p>Last Update: 2021-02-05</p><ol><li>Dose 1/2<ol><li>Date and time of vaccination: 2021-01-10</li><li><span>AIC#049283: COVID-19 Vaccine Moderna (MODERNA BIOTECH SPAIN, S.L.) - Lot#B1235742&nbsp;</span></li><li>Ospedale Careggi - Firenze</li></ol></li><li>Dose 2/2<ol><li>Date vaccine due: 2021-02-07</li><li>Status: contraindicated (Medical Precaution)</li></ol></li></ol></div>"
            },
            "entry": [
              {
                "reference": "urn:uuid:c220e36c-eb67-4fc4-9ba1-2fabc52acec6"
              }
            ]
          }
        ]
      }
    },
    {
      "fullUrl": "urn:uuid:2b90dd2b-2dab-4c75-9bb9-a355e07401e8",
      "resource": {
        "resourceType": "Patient",
        "id": "2b90dd2b-2dab-4c75-9bb9-a355e07401e8",
        "identifier": [
          {
            "system": "http://hl7.it/sid/codiceFiscale",
            "value": "RSSMRA97L67Z602C"
          }
        ],
        "name": [
          {
            "family": "Rossi",
            "given": [
              "Maria"
            ]
          }
        ],
        "gender": "female",
        "birthDate": "1997-07-28"
      }
    },
    {
      "fullUrl": "urn:uuid:c220e36c-eb67-4fc4-9ba1-2fabc52acec6",
      "resource": {
        "resourceType": "ImmunizationRecommendation",
        "id": "c220e36c-eb67-4fc4-9ba1-2fabc52acec6",
        "patient": {
          "reference": "urn:uuid:2b90dd2b-2dab-4c75-9bb9-a355e07401e8"
        },
        "date": "2021-02-05",
        "recommendation": [
          {
            "vaccineCode": [
              {
                "coding": [
                  {
                    "code": "1119349007",
                    "system": "http://snomed.info/sct",
                    "display": "Severe acute respiratory syndrome coronavirus 2 mRNA only vaccine product"
                  }
                ]
              }
            ],
            "forecastStatus": {
              "coding": [
                {
                  "code": "contraindicated",
                  "system": "http://terminology.hl7.org/CodeSystem/immunization-recommendation-status"
                }
              ]
            },
            "forecastReason": [
              {
                "coding": [
                  {
                    "code": "MEDPREC",
                    "system": "http://terminology.hl7.org/CodeSystem/v3-ActReason",
                    "display": "medical precaution"
                  }
                ]
              }
            ],
            "dateCriterion": [
              {
                "code": {
                  "coding": [
                    {
                      "code": "30980-7",
                      "system": "http://loinc.org",
                      "display": "Date vaccine due"
                    }
                  ]
                },
                "value": "2021-02-07"
              }
            ],
            "doseNumberPositiveInt": 2,
            "seriesDosesPositiveInt": 2,
            "supportingImmunization": [
              {
                "reference": "urn:uuid:42befbaf-eba8-44ec-b7d6-0e4a996e0760"
              }
            ]
          }
        ]
      }
    },
    {
      "fullUrl": "urn:uuid:45a5c5b1-4ec1-4d60-b4b2-ff5a84a41fd7",
      "resource": {
        "resourceType": "Organization",
        "id": "45a5c5b1-4ec1-4d60-b4b2-ff5a84a41fd7",
        "identifier": [
          {
            "system": "http://terminology.hl7.it/CodeSystem/minsan-hsp",
            "value": "090903"
          }
        ],
        "name": "AZ. OSPEDALIERO - UNIVERSITARIA CAREGGI"
      }
    },
    {
      "fullUrl": "urn:uuid:b66c1b23-21e9-4bd0-9cd7-edd806c126de",
      "resource": {
        "resourceType": "Organization",
        "id": "b66c1b23-21e9-4bd0-9cd7-edd806c126de",
        "identifier": [
          {
            "system": "http://terminology.hl7.it/CodeSystem/minsan-regione",
            "value": "090"
          }
        ],
        "name": "Regione Toscana"
      }
    },
    {
      "fullUrl": "urn:uuid:d7a490a1-d267-4785-ac98-db56748827fb",
      "resource": {
        "resourceType": "Practitioner",
        "id": "d7a490a1-d267-4785-ac98-db56748827fb",
        "identifier": [
          {
            "system": "http://hl7.it/sid/codiceFiscale",
            "value": "VRDRCR70H08H703B"
          }
        ]
      }
    },
    {
      "fullUrl": "urn:uuid:42befbaf-eba8-44ec-b7d6-0e4a996e0760",
      "resource": {
        "resourceType": "Immunization",
        "id": "42befbaf-eba8-44ec-b7d6-0e4a996e0760",
        "status": "completed",
        "vaccineCode": {
          "coding": [
            {
              "code": "1119349007",
              "system": "http://snomed.info/sct",
              "display": "Severe acute respiratory syndrome coronavirus 2 mRNA only vaccine product"
            },
            {
              "code": "049283",
              "system": "https://www.aifa.gov.it/aic",
              "display": "COVID-19 Vaccine Moderna"
            }
          ],
          "text": "COVID-19 Vaccine Moderna"
        },
        "patient": {
          "reference": "urn:uuid:2b90dd2b-2dab-4c75-9bb9-a355e07401e8"
        },
        "occurrenceDateTime": "2021-01-10",
        "location": {
          "reference": "urn:uuid:55a5c5b1-4ec1-4d60-b4b2-ff5a84a41fd8"
        },
        "manufacturer": {
          "display": "MODERNA BIOTECH SPAIN, S.L."
        },
        "lotNumber": "B1235742",
        "performer": [
          {
            "actor": {
              "reference": "urn:uuid:45a5c5b1-4ec1-4d60-b4b2-ff5a84a41fd7",
              "display": "Ospedale Careggi - Firenze"
            }
          },
          {
            "actor": {
              "reference": "urn:uuid:d7a490a1-d267-4785-ac98-db56748827fb"
            }
          }
        ],
        "protocolApplied": [
          {
            "targetDisease": [
              {
                "coding": [
                  {
                    "code": "J12.82",
                    "system": "http://hl7.org/fhir/sid/icd-10",
                    "display": "Pneumonia due to coronavirus disease 2019"
                  }
                ]
              }
            ],
            "doseNumberPositiveInt": 1,
            "seriesDosesPositiveInt": 2
          }
        ]
      }
    },
    {
      "fullUrl": "urn:uuid:55a5c5b1-4ec1-4d60-b4b2-ff5a84a41fd8",
      "resource": {
        "resourceType": "Location",
        "id": "55a5c5b1-4ec1-4d60-b4b2-ff5a84a41fd8",
        "name": "AZ. OSPEDALIERO - UNIVERSITARIA CAREGGI",
        "address": {
          "city": "Firenze",
          "country": "IT"
        }
      }
    }
  ]
}
