{
  "resourceType": "Bundle",
  "id": "svc-Bundle-01",
  "identifier": {
    "system": "http://hl7.eu/fhir/sid/uvci",
    "value": "V1CZ454557891308174803488707671418",
    "period": {
      "start": "2020-12-27T14:30:00+01:00",
      "end": "2021-12-27T14:30:00+01:00"
    }
  },
  "type": "document",
  "timestamp": "2020-12-27T14:30:00+01:00",
  "entry": [
    {
      "fullUrl": "urn:uuid:30551ce1-5a28-4356-b684-1e639094ad4d",
      "resource": {
        "resourceType": "Composition",
        "id": "30551ce1-5a28-4356-b684-1e639094ad4d",
        "identifier": {
          "system": "urn:ietf:rfc:3986",
          "value": "urn:uuid:3f69e0a5-2177-4540-baab-7a5d0877428f"
        },
        "status": "final",
        "type": {
          "coding": [
            {
              "code": "82593-5",
              "system": "http://loinc.org",
              "display": "Immunization summary report"
            }
          ]
        },
        "subject": {
          "reference": "urn:uuid:2b90dd2b-2dab-4c75-9bb9-a355e07401e8"
        },
        "date": "2020-12-27T14:30:00+01:00",
        "author": [
          {
            "display": "MUDr. Aleš Procházka"
          }
        ],
        "title": "Vaccine Certificate December 27, 2020 14:30",
        "confidentiality": "N",
        "attester": [
          {
            "mode": "legal",
            "time": "2020-12-27T14:30:00+01:00",
            "party": {
              "reference": "urn:uuid:45a5c5b1-4ec1-4d60-b4b2-ff5a84a41fd7"
            }
          }
        ],
        "custodian": {
          "reference": "urn:uuid:45a5c5b1-4ec1-4d60-b4b2-ff5a84a41fd7"
        },
        "section": [
          {
            "title": "Vaccinations",
            "code": {
              "coding": [
                {
                  "code": "11369-6",
                  "system": "http://loinc.org",
                  "display": "Hx of Immunization"
                }
              ]
            },
            "text": {
              "status": "generated",
              "div": "<div xmlns=\"http://www.w3.org/1999/xhtml\"><table><thead><tr><th>Date</th><th>Product</th><th>Vaccine</th><th>Dose</th></tr></thead><tbody><tr><td>2020-12-02</td><td>Comirnaty</td><td>COVID-19 mRNA Vaccine</td><td>1/2</td></tr><tr><td>2020-12-23</td><td>Comirnaty</td><td>COVID-19 mRNA Vaccine</td><td>2/2</td></tr></tbody></table></div>"
            },
            "entry": [
              {
                "reference": "urn:uuid:c220e36c-eb67-4fc4-9ba1-2fabc52acec6"
              },
              {
                "reference": "urn:uuid:47524493-846a-4a26-bae2-4ab03e60f02e"
              }
            ]
          }
        ]
      }
    },
    {
      "fullUrl": "urn:uuid:2b90dd2b-2dab-4c75-9bb9-a355e07401e8",
      "resource": {
        "resourceType": "Patient",
        "id": "2b90dd2b-2dab-4c75-9bb9-a355e07401e8",
        "identifier": [
          {
            "type": {
              "coding": [
                {
                  "code": "NIIP",
                  "system": "http://terminology.hl7.org/CodeSystem/v2-0203"
                }
              ]
            },
            "system": "urn:oid:1.2.203.24341.1.20.2",
            "value": "740512852"
          },
          {
            "system": "urn:oid:1.2.203.24341.1.20.9.1",
            "value": "A225961454"
          },
          {
            "type": {
              "coding": [
                {
                  "code": "PPN",
                  "system": "http://terminology.hl7.org/CodeSystem/v2-0203"
                }
              ]
            },
            "system": "urn:oid:2.16.840.1.113883.4.330.203",
            "value": "5484136"
          }
        ],
        "name": [
          {
            "family": "Očkovaný",
            "given": [
              "František"
            ]
          }
        ],
        "birthDate": "2000-03-21"
      }
    },
    {
      "fullUrl": "urn:uuid:c220e36c-eb67-4fc4-9ba1-2fabc52acec6",
      "resource": {
        "resourceType": "Immunization",
        "id": "c220e36c-eb67-4fc4-9ba1-2fabc52acec6",
        "status": "completed",
        "vaccineCode": {
          "coding": [
            {
              "code": "1119349007",
              "system": "http://snomed.info/sct",
              "display": "Severe acute respiratory syndrome coronavirus 2 mRNA only vaccine product"
            }
          ],
          "text": "Comirnaty"
        },
        "patient": {
          "reference": "urn:uuid:2b90dd2b-2dab-4c75-9bb9-a355e07401e8"
        },
        "occurrenceDateTime": "2020-12-02",
        "location": {
          "reference": "urn:uuid:55a5c5b1-4ec1-4d60-b4b2-ff5a84a41fd8"
        },
        "manufacturer": {
          "display": "BioNTech Manufacturing GmbH"
        },
        "lotNumber": "B1235742",
        "performer": [
          {
            "actor": {
              "display": "MUDr. Aleš Procházka"
            }
          }
        ],
        "protocolApplied": [
          {
            "targetDisease": [
              {
                "coding": [
                  {
                    "code": "840533007",
                    "system": "http://snomed.info/sct",
                    "display": "SARS-CoV-2"
                  }
                ]
              }
            ],
            "doseNumberPositiveInt": 1,
            "seriesDosesPositiveInt": 2
          }
        ]
      }
    },
    {
      "fullUrl": "urn:uuid:47524493-846a-4a26-bae2-4ab03e60f02e",
      "resource": {
        "resourceType": "Immunization",
        "id": "47524493-846a-4a26-bae2-4ab03e60f02e",
        "status": "completed",
        "vaccineCode": {
          "coding": [
            {
              "code": "1119349007",
              "system": "http://snomed.info/sct",
              "display": "Severe acute respiratory syndrome coronavirus 2 mRNA only vaccine product"
            }
          ],
          "text": "Comirnaty"
        },
        "patient": {
          "reference": "urn:uuid:2b90dd2b-2dab-4c75-9bb9-a355e07401e8"
        },
        "occurrenceDateTime": "2020-12-23",
        "location": {
          "reference": "urn:uuid:55a5c5b1-4ec1-4d60-b4b2-ff5a84a41fd8"
        },
        "manufacturer": {
          "display": "BioNTech Manufacturing GmbH"
        },
        "lotNumber": "D5423452",
        "performer": [
          {
            "actor": {
              "display": "MUDr. Jan Novák"
            }
          }
        ],
        "protocolApplied": [
          {
            "targetDisease": [
              {
                "coding": [
                  {
                    "code": "840533007",
                    "system": "http://snomed.info/sct",
                    "display": "SARS-CoV-2"
                  }
                ]
              }
            ],
            "doseNumberPositiveInt": 2,
            "seriesDosesPositiveInt": 2
          }
        ]
      }
    },
    {
      "fullUrl": "urn:uuid:45a5c5b1-4ec1-4d60-b4b2-ff5a84a41fd7",
      "resource": {
        "resourceType": "Organization",
        "id": "45a5c5b1-4ec1-4d60-b4b2-ff5a84a41fd7",
        "identifier": [
          {
            "system": "urn:oid:1.2.203",
            "value": "24341"
          }
        ],
        "name": "Ministry of Health of the Czech Republic"
      }
    },
    {
      "fullUrl": "urn:uuid:55a5c5b1-4ec1-4d60-b4b2-ff5a84a41fd8",
      "resource": {
        "resourceType": "Location",
        "id": "55a5c5b1-4ec1-4d60-b4b2-ff5a84a41fd8",
        "name": "Hospital Na Františku Prague",
        "address": {
          "city": "Prague",
          "country": "CZ"
        }
      }
    }
  ]
}
